Folder: KI3034TPSPDS/KI3034_UVDRS

Note: README.md
# KI3043 (judul repositorynya typo bjir) - Teknik Preparasi Sampel dan Pengolahan Data Spektroskopi

Repository ini berisi materi dan pengolahan data untuk praktikum KI3041 Teknik Preparasi Sampel dan Pengolahan Data Spektroskopi. Dalam repo ini terdiri dari pengolahan UV-Vis  dan Floresenens Spektroskopi, UV-DRS, FTIR, dan EIS. Pengolahan data dalam repository ini menggunakan berbagai tools seperti Python dengan library NumPy, Pandas, Matplotlib, dan SciPy untuk analisis statistik dan visualisasi data.

*Silahkan untuk adik-adik yang mau menggunakan repository ini :)*


## Lisensi
Materi ini digunakan untuk keperluan akademik praktikum KI3043.

---
*Dibuat untuk keperluan praktikum Teknik Preparasi Sampel dan Pengolahan Data Spektroskopi*

File: TiO2.csv
TiO2
6/5/2025 9:34:02 AM
Wavelength (nm),%Reflectance
800.00,72.0334
796.00,72.0925
792.00,72.4812
788.00,72.536
784.00,71.5978
780.00,73.0519
776.00,72.3563
772.00,73.5189
768.00,72.491
764.00,73.0402
760.00,73.2906
756.00,73.6778
752.00,73.106
748.00,72.5412
744.00,73.227
740.00,72.7552
736.00,73.3098
732.00,72.9937
728.00,72.7484
724.00,72.8
720.00,73.0017
716.00,72.655
712.00,73.3812
708.00,72.5375
704.00,72.9967
700.00,73.1266
696.00,73.454
692.00,72.8682
688.00,73.0977
684.00,72.8276
680.00,73.0857
676.00,73.1535
672.00,72.8256
668.00,73.2831
664.00,73.0508
660.00,73.0275
656.00,72.819
652.00,73.1309
648.00,72.8229
644.00,72.5476
640.00,72.5293
636.00,73.1828
632.00,73.6651
628.00,72.5457
624.00,73.6756
620.00,73.1774
616.00,72.8629
612.00,72.5253
608.00,73.1667
604.00,73.2367
600.00,73.031
596.00,73.1087
592.00,73.3615
588.00,73.2057
584.00,73.0453
580.00,72.6051
576.00,72.7624
572.00,72.4587
568.00,72.8516
564.00,72.5166
560.00,72.5813
556.00,72.0899
552.00,72.7645
548.00,72.2776
544.00,72.0304
540.00,72.6848
536.00,72.1009
532.00,72.4249
528.00,72.581
524.00,72.3526
520.00,71.9161
516.00,72.4322
512.00,71.9859
508.00,72.2829
504.00,71.958
500.00,71.7684
496.00,72.2414
492.00,71.9259
488.00,71.9589
484.00,72.1213
480.00,72.1222
476.00,71.9868
472.00,72.2939
468.00,72.0358
464.00,72.1689
460.00,72.3365
456.00,72.3326
452.00,72.6431
448.00,72.5177
444.00,72.5658
440.00,72.6015
436.00,72.5109
432.00,72.5612
428.00,71.9875
424.00,71.9662
420.00,71.7024
416.00,71.1651
412.00,70.0946
408.00,67.8281
404.00,66.6421
400.00,63.8556
396.00,60.2521
392.00,57.2913
388.00,53.5831
384.00,51.4986
380.00,48.51
376.00,47.1177
372.00,45.0878
368.00,42.5913
364.00,40.2689
360.00,38.6299
356.00,36.6353
352.00,35.3274
348.00,34.0105
344.00,33.3499
340.00,32.5597
336.00,32.2094
332.00,31.4846
328.00,30.6207
324.00,30.3461
320.00,30.2279
316.00,30.2642
312.00,30.6364
308.00,30.8885
304.00,30.5656
300.00,30.6535
296.00,31.0959
292.00,31.1835
288.00,31.3791
284.00,31.8011
280.00,32.1015
276.00,32.1657
272.00,32.4385
268.00,32.8237
264.00,33.0541
260.00,33.5172
256.00,34.0569
252.00,33.8673
248.00,34.0069
244.00,34.3324
240.00,35.101
236.00,35.9357
232.00,37.0309
228.00,38.7696
224.00,40.3064
220.00,41.1999
216.00,42.8173
212.00,43.6895
208.00,45.7419
204.00,47.1737
200.00,50.6647